File: xrf.csv
Sample,Period,Region,Site Name,Ti,Mn,Fe,Ni,Cu,Zn,Rb,Sr,Y,Zr,Nb,Ba,Pb,CaO,TiO2,MnO2
1,1,PL,JI-2,-1.38947,-0.518776,-1.63813,-0.957399,-1.1513,-0.628226,-0.0394157,0.81912,-0.849557,-0.698481,-0.63021,3.56663,0.992341,-1.73329,-1.31627,-0.454293
2,1,PL,JI-2,-0.184801,-0.319612,1.11232,0.0207456,0.336545,-0.359238,0.666147,-1.65623,1.12805,-1.03812,0.639089,-0.784505,-1.02987,1.46428,0.643968,-0.414511
3,1,PL,JI-2,1.171,0.145364,1.07894,0.148549,-0.175758,2.29248,0.806649,0.64137,5.00903,0.974918,1.77468,-0.231039,0.829965,-0.218863,0.871902,0.0628709
4,1,PL,JI-2,-0.882864,-0.310603,-0.266849,0.157176,-0.693625,-0.0468765,-0.356112,0.206289,2.15001,0.509669,0.252465,0.0226521,0.921543,0.765312,0.16205,-0.348208
5,1,PL,JI-2,-1.41928,-0.434097,-1.69382,-0.775466,-1.03949,-1.09986,-0.659339,0.258035,-0.596737,-0.231349,-0.213996,3.16857,0.586641,-0.931888,-0.456628,-0.480814
6,1,PL,JI-2,-1.24477,0.220629,-1.08867,-0.627355,-0.971752,-1.4464,-0.232603,-0.12823,-0.416535,0.343348,-0.190826,0.215832,0.267688,-0.869624,-1.06228,0.195477
7,1,PL,JI-2,0.437704,-0.716623,0.856494,1.12028,-0.00648524,0.404265,-0.478655,-0.0380405,-0.793153,-1.04067,-0.977753,-1.22098,1.27481,-1.60474,-0.834348,-0.759287
8,1,PL,JI-2,-0.0447663,-0.107505,-0.0441612,0.0478484,0.0686964,0.126419,-0.0110639,-0.869408,-0.55232,-1.04498,-0.536974,-0.170943,-0.421446,-1.0062,-0.398017,-0.136038
9,1,PL,JI-2,-0.771327,0.425817,0.0293838,-0.745157,-0.291483,0.368602,0.284935,-0.498277,-0.0355379,-1.14315,-0.489239,0.162051,-1.37782,-1.29945,-0.89296,0.275041
10,1,PL,JI-2,0.106905,0.571368,0.0613335,0.012882,-0.516573,0.344493,-0.437396,0.666287,-0.285745,1.52091,-0.285179,-0.0533087,0.384637,-0.763172,-0.834348,0.593296
11,1,PL,JI-2,0.320359,-0.201692,0.937718,0.947662,1.70793,0.069399,1.10994,-1.47056,0.811063,-0.979545,-0.612344,-0.809147,1.20111,0.775355,0.383472,-0.242123
12,1,PL,JI-2,-0.669882,-0.680932,-1.17269,-0.374421,0.0905014,-0.481591,-0.517356,0.192476,-0.383492,0.716175,1.08043,-0.333095,-0.205186,0.164765,-1.15997,-0.626681
13,1,PL,JI-2,2.47325,-0.0231487,0.673247,-0.0210156,0.533187,0.0291498,0.692703,0.418245,2.90163,1.10913,2.94906,-0.274012,0.00310093,1.10676,2.47395,-0.109517
14,1,PL,JI-2,1.19501,-0.690943,1.4866,0.91239,0.00282729,0.926272,0.28076,-2.06478,-0.243865,-1.01357,-0.395723,-0.919905,-0.68265,-0.435783,0.800266,-0.692984
15,1,PL,JI-2,-0.253614,-0.210842,-0.393073,-0.1676,-0.640816,0.824531,-0.9814,0.490257,-0.398169,-0.0641749,-1.02074,-0.225575,0.339935,1.08266,0.109951,-0.215602
16,1,PL,JI-2,1.51397,-0.0470923,1.4477,0.388046,0.558115,0.455321,0.50066,-0.0807536,0.109238,-0.37337,-0.959329,-0.360321,-0.621759,0.389719,0.735142,-0.0962565
17,1,PL,JI-2,0.276827,0.146577,0.554964,-0.154316,-0.717872,0.337899,-0.140768,0.568163,0.648613,-0.0637564,-0.0303147,0.425636,0.924201,0.612665,0.683043,0.102653
18,1,PL,JI-2,-0.128274,-0.0874632,0.0101471,-0.624301,-0.985266,-0.784922,-0.175518,0.036536,1.74119,0.831497,1.09103,-0.38657,0.0347547,-0.471936,-0.430579,-0.149299
19,1,PL,JI-2,-0.620144,-0.261073,0.130002,-0.392744,0.133657,-1.62388,-0.176461,-1.06983,-0.4817,-0.11762,-0.946209,-1.54212,1.34585,-1.34765,-1.53769,-0.281905
20,1,PL,JI-2,0.198322,-0.452777,-0.703767,-0.37068,-0.774952,-0.72556,-0.336493,0.501393,-0.493073,0.457039,-1.08495,-0.752148,0.0680302,-1.39229,-1.35534,-0.533857
21,1,PL,JI-2,0.0104656,0.461196,-0.186043,-0.597733,-0.925459,-1.23,-0.0255588,-0.137869,0.687727,0.835974,-0.382045,-0.886134,-1.02071,-1.07489,-1.31627,0.460689
22,1,PL,JI-2,-0.498389,-0.609187,-1.17638,-0.822114,-0.660084,-0.188592,-1.37807,-1.32912,-1.52087,-0.558138,-1.48357,-1.61638,-0.939939,-1.72182,-1.47908,0.0363497
23,1,PL,JI-2,-0.257227,-0.446316,-0.906557,-0.323269,-1.11361,-1.13934,-0.530645,-0.0119284,1.15671,1.93103,0.0556638,-1.05728,1.00512,-0.85453,-1.14694,-0.441032
24,1,PL,JI-2,-1.10665,-0.301766,-0.589205,-0.408624,-1.08927,-1.03208,-0.680758,-0.219631,2.12619,2.13566,0.511796,-0.0967165,1.11696,-0.816119,-1.04926,-0.334948
25,1,PL,JI-2,0.131617,-0.913296,0.742085,-0.000707625,-0.993276,0.440011,-0.733224,-1.18035,-1.62584,-0.71384,-1.56788,-1.66838,1.30222,-1.66117,-1.27068,-0.878633
26,1,PL,JI-2,-1.20836,-0.335567,-0.952533,-0.814555,-0.19461,0.326372,-0.148396,0.610972,-0.288742,0.255854,-0.0934028,0.91332,0.590195,-0.484568,-1.15997,-0.308426
27,1,PL,JI-2,-0.451254,-0.434027,0.378504,0.388122,-0.864077,-0.375302,-0.647931,0.65147,0.151733,0.146703,-0.818079,-0.790964,0.438309,-1.05467,-0.945059,-0.507336
28,1,PL,JI-2,-1.2339,0.273009,-1.35201,-0.818296,-1.13178,-1.33032,-0.8897,1.62398,-0.405239,0.0307717,-0.415822,0.891966,0.663146,-0.334965,-1.19253,0.26178
29,1,PL,JI-2,-1.42138,-0.286238,-0.971098,-0.795469,-1.19132,-0.679298,-0.517282,0.808446,-0.160718,0.616299,-0.0741414,-0.703126,-0.0953621,-1.41251,-1.19253,-0.308426
30,1,PL,JI-2,-0.242795,0.321043,-0.115808,0.166566,-0.856776,-0.945246,-0.472737,0.476046,0.630785,1.02902,-0.0121698,-0.0680062,1.00627,-0.717058,-0.912497,0.221998
31,0,PL,CH-1,-0.0223108,-0.209567,-0.291075,-0.196993,0.00581316,-0.112289,0.228169,0.714369,-0.831268,-0.346089,0.0517557,1.8315,0.36812,-0.595759,-0.339405,-0.281905
32,0,PL,CH-1,1.36726,1.24823,1.08149,-0.116524,-0.137447,-0.608333,-0.651113,-0.112378,-0.335387,-0.0388317,-0.918015,-0.308487,0.157551,-0.266229,-0.743174,1.17676
33,0,PL,CH-1,0.162769,3.65151,1.08002,1.40459,0.65024,0.61812,-0.623662,-1.48495,-0.669432,-1.26435,-1.47743,-0.874984,-0.689788,-0.0115009,-1.02321,3.52389
34,0,PL,CH-1,-0.702455,0.546071,-0.75234,0.293606,-0.901663,0.229606,0.17149,-0.576646,-0.60688,0.0591045,-0.126622,0.636112,0.407012,-0.921245,-0.801786,0.500471
35,0,PL,CH-1,0.421666,2.68136,0.735487,0.283452,-0.273136,0.538169,0.223276,-0.470014,0.101477,-0.342659,-0.00826173,0.456073,0.0415652,-0.628105,-0.573852,2.56913
36,0,PL,CH-1,0.275625,1.56416,0.305549,0.0327319,-1.09414,-0.705068,-0.20942,0.173677,-0.161487,0.505824,-0.593083,0.705329,-0.0159673,-0.405723,-0.723637,1.44197
37,0,PL,CH-1,1.00995,1.17927,1.11354,0.514704,0.26221,0.63188,0.415958,0.310531,-0.676886,-0.695973,-0.398515,0.795675,1.33259,0.243227,0.813291,1.04416
38,0,PL,CH-1,-0.528377,0.464576,0.141049,-0.0178855,-0.668304,-0.781697,3.74646,-0.28605,-1.07656,0.136445,-0.88675,-0.381586,2.26347,-0.12067,-0.606414,0.420908
39,0,PL,CH-1,2.15642,2.05262,1.50922,0.671824,-0.0532296,0.980109,0.558778,2.23827,-0.228265,1.61084,-0.098461,2.75139,0.686218,0.176839,1.55599,2.09175
40,0,PL,CH-1,-0.5686,0.70691,-0.314705,-0.0152897,-0.721233,-0.338597,1.22601,-0.0223353,-0.381955,0.69748,-0.098461,0.186055,2.44356,0.356869,0.204671,0.765684
41,0,PL,CH-1,0.0968724,1.54032,-0.0695059,0.213748,-0.654433,0.320756,0.625501,-0.137795,-0.381955,0.0405005,-0.098461,1.93301,0.246883,0.636915,0.590762,1.56132
42,0,PL,CH-1,0.185602,1.97173,-0.0373517,-0.244328,1.14918,0.406759,0.514296,-0.229161,-0.4588,-0.424192,-0.098461,1.55827,-0.851454,0.636915,1.10555,1.95914
43,0,PL,CH-1,1.45085,0.648081,1.5326,1.28259,2.55198,0.664766,0.647742,-1.46523,-0.689335,-1.85032,-1.01975,0.679282,0.0272158,1.07699,1.0412,0.633077
44,0,PL,CH-1,-0.457688,3.00859,-0.491369,-0.549711,-0.520832,-0.711275,-0.108456,1.12626,-1.07356,-0.648527,-0.098461,0.387203,0.46655,0.716928,0.462065,3.15259
45,0,PL,CH-1,0.0260594,-0.459864,-0.0947699,0.137402,-0.587633,0.206086,4.18408,-0.693712,-1.1504,-0.45624,2.05122,-0.133578,0.46655,0.776938,0.397716,-0.427772
46,0,PL,CH-1,-0.107888,-0.371621,-0.54107,-0.0916356,-0.587633,0.234753,4.78459,-0.274308,-0.535645,-0.0876906,1.74412,0.621417,0.905885,1.21701,0.719459,-0.16256
47,0,PL,CH-1,-1.53865,-0.43045,-1.59072,-0.855095,-1.12204,-1.05529,-1.30948,2.23107,-0.843025,-0.183834,0.515733,0.574574,-0.851454,2.17717,0.204671,-0.427772
48,0,PL,CH-1,-0.642826,-0.0112934,-0.907352,-0.473365,0.280772,-0.051922,0.00274953,-0.387121,0.15596,0.761575,-0.405558,0.866653,-1.07112,0.896958,0.204671,-0.0299534
49,0,PL,CH-1,0.321256,0.547581,-0.489164,-0.244328,-0.721233,0.00541307,1.42618,-0.988847,-0.91987,-0.872861,-0.712654,0.480889,-0.192452,0.616912,0.719459,1.42871
50,0,PL,CH-1,0.281157,-0.153463,0.0235115,-0.244328,-0.12003,0.00541307,0.0917141,-0.610493,-0.0745752,-0.985028,-0.405558,1.26344,-0.412119,1.29702,0.912504,-0.0299534
51,0,RL,SCOTT,2.35983,-0.854723,2.4519,2.84747,1.60162,2.05954,0.171671,-0.364004,-1.64873,-1.43578,-1.03637,-0.683352,0.271235,0.880956,0.989126,-0.838851
52,0,RL,SCOTT,1.25513,-0.661292,1.05474,1.89848,1.75058,0.587219,-0.155719,-0.980325,-1.40403,-1.84385,-1.28147,-0.939581,0.0279875,1.23701,1.00215,-0.653202
53,0,RL,SCOTT,0.267259,-0.306016,0.735725,1.6738,1.63321,0.473047,-0.208853,-0.598377,0.0480817,-1.2217,-0.450716,-0.160747,-1.79349,0.818945,1.05425,-0.334948
54,0,RL,SCOTT,1.87833,1.57448,1.08106,1.95929,-0.934393,-0.494575,-0.54892,0.563941,-0.273561,1.5448,1.04051,0.647551,2.10192,-0.407258,2.76701,1.45524
55,0,RL,SCOTT,-1.07129,1.34622,0.801113,-0.488293,-0.690171,-1.08569,-1.52584,0.202242,0.410003,-0.789664,-0.912711,-0.819325,-1.10264,0.682923,-0.560827,1.07068
56,0,RL,SCOTT,0.00917597,-0.358838,0.215297,0.890057,0.613973,0.16303,-0.337162,-0.909588,0.356076,-0.739775,-0.372275,-0.282041,-1.86782,0.978972,1.03471,-0.38799
57,0,RL,SCOTT,-1.11792,1.84406,-0.804479,-1.02436,0.945236,-1.40475,-0.236276,-1.65921,-0.0757801,-1.76105,-0.65338,-0.3948,-0.928433,-0.47927,-0.0723965,2.26413
58,0,RL,SCOTT,0.47271,0.520723,0.347168,-0.218712,1.61785,-0.264391,-0.942944,0.294424,0.350617,1.91992,-0.0169154,-0.422392,-0.937868,1.80711,1.12589,0.47395
59,0,RL,SCOTT,0.708822,-0.816373,0.751184,0.557399,0.788589,-0.657738,-0.510198,0.0197918,0.142066,-0.70466,-1.7792,-1.34526,-1.75368,-0.121211,-1.14694,-0.573639
60,0,RL,SCOTT,1.53764,-0.604733,1.22344,0.659832,-0.0163558,1.96755,-0.238967,3.72609,0.362199,0.564273,-1.06122,-0.26534,3.05995,2.41121,0.924002,-0.61342
61,1,RL,RICH,-0.322493,-0.422509,0.552961,0.423063,0.338755,0.799165,-0.601008,-1.66378,0.631022,-0.830958,-0.5152,-1.2725,-2.17896,-1.63146,-1.66794,-0.772548
62,1,RL,RICH,-0.00399894,-0.118052,-0.10845,0.610479,0.48792,0.158167,0.549681,-0.49259,1.9471,1.44479,1.58792,-0.619123,-0.218942,0.836948,0.832828,-0.149299
63,1,RL,RICH,0.223894,0.108997,0.427812,0.605935,0.771755,1.13896,0.346264,1.33571,0.741383,1.01686,-0.0713498,0.0337983,-0.559074,1.24702,0.83934,0.0761315
64,1,RL,RICH,1.9412,-0.133788,1.6263,2.23941,2.2741,1.5205,-0.317945,-0.808071,-0.252019,-0.689034,-1.5944,-1.40597,-0.684725,1.35703,0.650481,-0.136038
65,1,RL,RICH,3.36007,0.162938,2.53553,3.84535,4.54985,2.47593,-0.574875,-0.494103,-1.05767,-2.03138,-1.69294,-1.7025,-2.2098,1.46105,1.22357,0.0761315
66,1,RL,RICH,-0.0163439,-0.313778,-0.546056,0.297726,0.610365,-0.154044,1.0278,-0.876004,0.0549424,-0.333105,0.410465,0.0594944,-1.27156,0.610911,0.696067,-0.374729
67,1,RL,RICH,1.30641,-0.642474,1.43875,1.51293,2.35866,0.739796,-0.364563,0.286266,-0.815041,-1.93193,-0.943138,-1.01604,-1.54679,1.32103,1.45151,-0.759287
68,1,RL,RICH,-0.746404,-0.293346,-0.453704,0.377437,0.100077,-0.365189,0.193022,-0.79174,1.38924,-0.0740077,0.624294,-0.822914,-0.0926006,0.490891,0.624431,-0.348208
69,1,RL,RICH,-0.886717,-0.173898,-0.798069,0.465964,0.470218,-0.41673,-0.351396,0.0800298,0.396282,-0.328856,-0.115735,-0.0254436,0.200125,0.766937,0.526745,-0.268644
70,1,RL,RICH,0.0749047,0.369641,1.14183,0.442786,0.414373,4.6088,0.697213,-0.612132,0.39879,-0.103919,1.19817,-0.294577,-0.543953,-0.235904,1.01825,0.367865